File: data/stocks/TGA.csv
Date,High,Low,Open,Close,Volume,Adj Close
2010-01-04,3.49,3.33,3.35,3.44,91900.0,3.06232
2010-01-07,3.73,3.57,3.68,3.73,83800.0,3.32048
2010-01-12,3.85,3.63,3.78,3.63,82600.0,3.23146
2010-01-15,3.69,3.63,3.68,3.63,64000.0,3.23146
2010-01-21,3.57,3.46,3.57,3.47,35600.0,3.08902
2010-01-26,3.55,3.45,3.47,3.55,61500.0,3.16024
2010-01-29,3.78,3.55,3.66,3.55,48500.0,3.16024
2010-02-03,3.99,3.8,3.87,3.85,122100.0,3.4273
2010-02-08,3.78,3.6,3.72,3.7,64100.0,3.29377
2010-02-11,3.83,3.72,3.73,3.83,48500.0,3.4095
2010-02-17,3.93,3.85,3.88,3.92,54400.0,3.48962
2010-02-22,4.08,3.96,4.02,4.04,63300.0,3.59644
2010-02-25,3.9,3.8,3.9,3.84,25400.0,3.4184
2010-03-02,3.92,3.85,3.87,3.85,31400.0,3.4273
2010-03-05,3.93,3.85,3.9,3.92,62800.0,3.48962
2010-03-10,4.64,4.26,4.3,4.58,339200.0,4.07715
2010-03-15,4.66,4.29,4.4,4.51,355000.0,4.01484
2010-03-18,4.67,4.53,4.63,4.57,47600.0,4.06825
2010-03-23,4.75,4.55,4.59,4.72,156300.0,4.20178
2010-03-26,5.49,5.33,5.49,5.37,231600.0,4.78042
2010-03-31,5.83,5.41,5.43,5.8,312300.0,5.16321
2010-04-06,6.45,6.29,6.31,6.36,261500.0,5.66173
2010-04-09,6.39,6.03,6.19,6.37,190800.0,5.67063
2010-04-14,6.75,6.52,6.6,6.67,246400.0,5.93769
2010-04-19,6.88,6.43,6.64,6.84,502200.0,6.08903
2010-04-22,7.39,7.07,7.13,7.31,621800.0,6.50742
2010-04-27,7.19,6.9,7.18,6.91,290200.0,6.15134
2010-04-30,7.58,7.3,7.52,7.47,336300.0,6.64986
2010-05-05,7.41,7.15,7.15,7.2,378100.0,6.4095
2010-05-10,7.32,7.07,7.14,7.21,249600.0,6.4184
2010-05-13,7.56,7.44,7.53,7.44,180300.0,6.62315
2010-05-18,7.54,7.2,7.4,7.28,288200.0,6.48072
2010-05-21,6.84,6.49,6.53,6.79,182500.0,6.04452
2010-05-26,6.81,6.55,6.55,6.58,121700.0,5.85757
2010-06-01,7.29,6.87,6.9,7.11,312800.0,6.32938
2010-06-04,7.84,7.3,7.69,7.41,423600.0,6.59644
2010-06-09,7.77,7.46,7.6,7.52,182400.0,6.69437
2010-06-14,8.05,7.9,7.92,7.9,223600.0,7.03265
2010-06-17,8.05,7.72,8.05,7.78,253200.0,6.92582
2010-06-22,7.97,7.69,7.86,7.79,245900.0,6.93472
2010-06-25,7.67,7.3,7.32,7.65,140900.0,6.81009
2010-06-30,7.59,7.31,7.53,7.32,109200.0,6.51633
2010-07-06,7.32,6.91,7.09,7.06,172800.0,6.28487
2010-07-09,7.73,7.53,7.59,7.62,118800.0,6.78339
2010-07-14,7.65,7.52,7.61,7.53,74400.0,6.70327
2010-07-19,7.2,6.9,7.18,6.94,95400.0,6.17805
2010-07-22,7.35,7.2,7.31,7.31,120200.0,6.50742
2010-07-27,7.49,7.32,7.49,7.39,51400.0,6.57864
2010-07-30,7.57,7.29,7.33,7.54,148900.0,6.71217
2010-08-04,7.75,7.5,7.66,7.68,178100.0,6.8368
2010-08-09,7.78,7.63,7.77,7.74,101000.0,6.89021
2010-08-12,7.51,7.36,7.45,7.47,124000.0,6.64986
2010-08-17,7.79,7.46,7.46,7.75,226600.0,6.89911
2010-08-20,7.6,7.48,7.56,7.53,101000.0,6.70327
2010-08-25,7.4,7.27,7.4,7.4,185500.0,6.58754
2010-08-30,7.6,7.34,7.6,7.34,41900.0,6.53413
2010-09-02,7.41,7.19,7.31,7.4,81400.0,6.58754
2010-09-08,7.4,7.25,7.25,7.34,117600.0,6.53413
2010-09-13,7.97,7.71,7.75,7.91,220800.0,7.04155
2010-09-16,7.8,7.71,7.71,7.71,75000.0,6.86351
2010-09-21,8.95,8.71,8.79,8.84,395600.0,7.86944
2010-09-24,9.24,8.92,8.97,9.24,403200.0,8.22553
2010-09-29,9.59,9.08,9.56,9.16,279800.0,8.15431
2010-10-04,9.9,9.55,9.7,9.58,197700.0,8.5282
2010-10-07,9.82,9.35,9.82,9.4,187400.0,8.36796
2010-10-12,9.87,9.72,9.77,9.85,84300.0,8.76855
2010-10-15,10.96,10.35,10.96,10.47,269600.0,9.32048
2010-10-20,10.65,9.9,9.9,10.53,212400.0,9.37389
2010-10-25,10.65,10.47,10.47,10.53,77000.0,9.37389
2010-10-28,10.72,10.4,10.4,10.44,152500.0,9.29378
2010-11-02,11.45,10.97,11.0,11.39,371900.0,10.1395
2010-11-05,14.66,13.05,13.05,14.63,1059600.0,13.0237
2010-11-10,15.2,14.62,14.96,15.2,605800.0,13.5312
2010-11-15,15.7,15.27,15.46,15.32,366600.0,13.638
2010-11-18,15.64,14.74,14.93,14.82,574900.0,13.1929
2010-11-23,15.69,15.17,15.44,15.45,324900.0,13.7537
2010-11-29,17.4,16.25,17.4,16.73,635400.0,14.8932
2010-12-02,18.05,17.25,17.29,17.99,775900.0,16.0148
2010-12-07,20.26,17.97,20.2,18.16,1742600.0,16.1662
2010-12-10,17.74,17.23,17.5,17.44,479500.0,15.5252
2010-12-15,15.0,13.68,14.9,14.09,2117900.0,12.543
2010-12-20,15.3,14.48,15.08,15.13,757000.0,13.4689
2010-12-23,16.61,15.76,15.76,16.46,620700.0,14.6528
2010-12-29,16.42,15.8,15.99,16.13,554400.0,14.3591
2011-01-03,16.23,15.81,15.98,15.94,275800.0,14.1899
2011-01-06,15.88,15.2,15.74,15.61,450800.0,13.8962
2011-01-11,15.33,14.92,14.92,15.28,344800.0,13.6024
2011-01-14,15.47,15.13,15.4,15.18,174700.0,13.5134
2011-01-20,14.54,13.77,14.38,14.47,581800.0,12.8813
2011-01-25,14.19,13.94,14.13,14.04,254300.0,12.4985
2011-01-28,13.5,12.84,13.15,13.31,988300.0,11.8487
2011-02-02,13.74,13.14,13.39,13.33,559000.0,11.8665
2011-02-07,15.34,13.59,13.8,15.17,1237900.0,13.5045
2011-02-10,15.94,14.85,14.85,15.67,1068600.0,13.9496
2011-02-15,15.27,14.65,15.27,14.88,511800.0,13.2463
2011-02-18,15.25,14.56,15.25,14.8,399100.0,13.1751
2011-02-24,14.04,13.68,13.72,13.76,215700.0,12.2493
2011-03-01,14.72,14.0,14.59,14.32,292300.0,12.7478
2011-03-04,14.95,14.43,14.43,14.92,333600.0,13.2819
2011-03-09,15.13,14.35,15.02,14.45,521500.0,12.8635
2011-03-14,13.54,12.78,12.95,13.48,284300.0,12
2011-03-17,13.74,13.0,13.26,13.45,195300.0,11.9733
2011-03-22,14.29,13.88,14.14,13.89,387300.0,12.365
2011-03-25,14.2,13.83,13.98,13.89,190000.0,12.365
2011-03-30,15.34,15.01,15.02,15.2,352300.0,13.5312
2011-04-04,15.35,15.14,15.24,15.35,261800.0,13.6647
2011-04-07,15.7,15.29,15.59,15.34,151900.0,13.6558
2011-04-12,15.0,14.15,14.94,14.27,242100.0,12.7033
2011-04-15,14.47,14.13,14.36,14.14,149200.0,12.5875
2011-04-20,14.03,13.63,13.83,13.76,182400.0,12.2493
2011-04-26,14.22,13.78,14.01,14.19,95300.0,12.6321
2011-04-29,14.79,14.58,14.61,14.6,264000.0,12.997
2011-05-04,13.46,13.0,13.43,13.03,249100.0,11.5994
2011-05-09,13.63,12.79,12.81,13.6,254000.0,12.1068
2011-05-12,13.55,13.07,13.3,13.51,142100.0,12.0267
2011-05-17,12.93,12.45,12.7,12.51,188100.0,11.1365
2011-05-20,13.52,12.81,12.88,13.5,161100.0,12.0178
2011-05-25,13.69,13.24,13.27,13.53,102700.0,12.0445
2011-05-31,15.62,14.7,14.7,15.6,716400.0,13.8873
2011-06-03,14.48,14.11,14.22,14.17,111000.0,12.6143
2011-06-08,13.68,13.04,13.56,13.11,115100.0,11.6706
2011-06-13,12.94,12.38,12.85,12.54,170200.0,11.1632
2011-06-16,12.49,11.71,12.46,11.85,247300.0,10.549
2011-06-21,11.95,11.6,11.74,11.75,116200.0,10.4599
2011-06-24,11.25,10.77,11.25,10.89,175400.0,9.69437
2011-06-29,11.38,10.94,11.11,11.2,107200.0,9.97033
2011-07-05,13.0,11.98,12.96,12.41,456300.0,11.0475
2011-07-08,12.62,12.23,12.48,12.53,102200.0,11.1543
2011-07-13,12.35,11.83,11.95,11.96,118600.0,10.6469
2011-07-18,11.93,11.6,11.91,11.79,126300.0,10.4956
2011-07-21,12.25,11.93,11.93,12.13,67800.0,10.7982
2011-07-26,11.87,11.65,11.87,11.71,40200.0,10.4243
2011-07-29,11.02,10.65,10.87,10.71,124900.0,9.53413
2011-08-03,10.06,9.61,10.04,9.92,203700.0,8.83087
2011-08-08,8.6,7.7,7.99,8.27,374700.0,7.36202
2011-08-11,9.62,8.6,8.91,9.45,156800.0,8.41247
2011-08-16,9.82,9.41,9.78,9.45,123800.0,8.41247
2011-08-19,9.13,8.65,8.78,8.7,143800.0,7.74481
2011-08-24,9.18,8.81,8.97,9.12,93500.0,8.1187
2011-08-29,9.71,9.16,9.25,9.63,129500.0,8.57271
2011-09-01,9.79,9.5,9.68,9.62,160000.0,8.56381
2011-09-07,10.09,9.23,9.35,10.03,233300.0,8.92879
2011-09-12,9.57,8.81,9.28,9.2,173300.0,8.18992
2011-09-15,9.89,9.36,9.58,9.88,100200.0,8.79526
2011-09-20,10.12,9.64,10.1,9.79,126600.0,8.71514
2011-09-23,8.61,8.28,8.44,8.56,91000.0,7.62018
2011-09-28,9.47,8.77,9.18,8.82,109500.0,7.85164
2011-10-03,8.21,7.55,7.9,7.55,163800.0,6.72107
2011-10-06,8.81,7.93,7.98,8.56,134000.0,7.62018
2011-10-11,9.07,8.65,8.67,8.91,110200.0,7.93176
2011-10-14,9.31,8.65,8.89,9.1,221100.0,8.1009
2011-10-19,9.68,9.08,9.17,9.29,95100.0,8.27003
2011-10-24,10.17,9.59,9.61,10.0,102600.0,8.90208
2011-10-27,10.83,10.25,10.63,10.68,142300.0,9.50743
2011-11-01,9.86,9.45,9.75,9.71,126500.0,8.64392
2011-11-04,10.24,9.97,10.11,10.2,137200.0,9.08012
2011-11-09,10.05,9.47,9.76,9.53,255800.0,8.48369
2011-11-14,9.68,9.45,9.66,9.53,111000.0,8.48369
2011-11-17,9.22,8.71,9.14,8.8,133400.0,7.83383
2011-11-22,7.92,7.59,7.92,7.65,132800.0,6.81009
2011-11-28,8.09,7.75,7.75,7.92,202000.0,7.05045
2011-12-01,8.24,7.75,8.1,7.92,121700.0,7.05045
2011-12-06,8.28,8.02,8.28,8.18,52100.0,7.2819
2011-12-09,7.78,7.51,7.65,7.69,92000.0,6.8457
2011-12-14,7.06,6.75,6.92,6.89,133800.0,6.13354
2011-12-19,7.31,6.95,7.13,7.19,130200.0,6.4006
2011-12-22,8.32,7.86,7.95,8.05,240200.0,7.16618
2011-12-28,8.07,7.7,8.04,7.77,102500.0,6.91692
2012-01-03,8.38,8.15,8.2,8.25,109600.0,7.34422
2012-01-06,8.97,8.72,8.78,8.87,164800.0,7.89615
2012-01-11,9.26,8.89,9.26,8.98,67100.0,7.99407
2012-01-17,9.28,8.72,8.72,8.93,180100.0,7.94956
2012-01-20,9.4,9.11,9.19,9.35,59900.0,8.32345
2012-01-25,9.58,9.2,9.48,9.49,79100.0,8.44808
2012-01-30,9.57,9.18,9.42,9.53,115400.0,8.48369
2012-02-02,10.45,9.99,10.34,10.05,228200.0,8.9466
2012-02-07,10.43,9.94,10.15,10.33,126300.0,9.19585
2012-02-10,10.25,10.08,10.2,10.24,264300.0,9.11573
2012-02-15,10.4,10.12,10.3,10.22,97300.0,9.09793
2012-02-21,10.89,10.69,10.78,10.79,128500.0,9.60535
2012-02-24,11.21,10.81,10.81,11.16,156500.0,9.93472
2012-02-29,11.63,11.29,11.31,11.58,275000.0,10.3086
2012-03-05,11.56,11.24,11.55,11.4,159400.0,10.1484
2012-03-08,11.91,11.35,11.57,11.76,309100.0,10.4689
2012-03-13,12.18,11.57,11.65,12.15,218700.0,10.816
2012-03-16,12.18,11.87,12.01,12.06,123500.0,10.7359
2012-03-21,11.72,11.45,11.62,11.72,62100.0,10.4332
2012-03-26,12.5,12.06,12.07,12.4,154100.0,11.0386
2012-03-29,12.33,11.85,12.23,12.05,76700.0,10.727
2012-04-03,12.91,12.41,12.41,12.61,127500.0,11.2255
2012-04-09,12.51,12.27,12.28,12.43,77100.0,11.0653
2012-04-12,13.95,13.15,13.2,13.86,259400.0,12.3383
2012-04-17,13.14,12.84,12.88,12.86,224600.0,11.4481
2012-04-20,13.61,13.14,13.44,13.19,57200.0,11.7418
2012-04-25,13.55,13.04,13.13,13.48,70500.0,12
2012-04-30,13.93,13.62,13.86,13.75,73000.0,12.2404
2012-05-03,14.33,13.36,14.18,13.52,176200.0,12.0356
2012-05-08,12.15,11.37,12.03,11.98,205700.0,10.6647
2012-05-11,12.61,11.7,11.7,12.28,123300.0,10.9318
2012-05-16,10.95,10.22,10.87,10.31,204200.0,9.17805
2012-05-21,10.62,10.1,10.11,10.53,91800.0,9.37389
2012-05-24,10.65,10.13,10.45,10.37,43800.0,9.23146
2012-05-30,10.16,9.86,10.15,9.94,114300.0,8.84867
2012-06-04,9.66,9.0,9.5,9.49,145000.0,8.44808
2012-06-07,9.96,9.7,9.89,9.75,77000.0,8.67953
2012-06-12,10.4,9.95,9.99,10.08,102900.0,8.9733
2012-06-15,9.73,9.46,9.58,9.63,97800.0,8.57271
2012-06-20,9.67,9.04,9.46,9.08,107800.0,8.08309
2012-06-25,8.17,8.0,8.11,8.12,123700.0,7.22849
2012-06-28,8.49,7.9,7.91,8.43,229700.0,7.50446
2012-07-03,9.7,8.8,8.82,9.67,246600.0,8.60831
2012-07-09,8.94,8.74,8.81,8.83,109300.0,7.86054
2012-07-12,8.77,8.48,8.75,8.54,195400.0,7.60238
2012-07-17,9.18,8.71,8.82,9.13,111700.0,8.1276
2012-07-20,8.97,8.76,8.81,8.81,123000.0,7.84274
2012-07-25,8.88,8.62,8.88,8.69,51900.0,7.73591
2012-07-30,10.09,9.7,10.03,9.84,126700.0,8.75965
2012-08-02,9.31,8.82,9.21,8.89,122700.0,7.91395
2012-08-07,9.92,9.39,9.5,9.79,202400.0,8.71514
2012-08-10,9.65,9.45,9.65,9.52,84100.0,8.47478
2012-08-15,9.51,9.33,9.42,9.47,59700.0,8.43027
2012-08-20,10.71,10.39,10.42,10.41,98700.0,9.26707
2012-08-23,10.81,10.49,10.75,10.54,86300.0,9.3828
2012-08-28,10.61,10.21,10.46,10.29,52400.0,9.16024
2012-08-31,10.49,10.11,10.34,10.23,68700.0,9.10683
2012-09-06,11.58,10.91,10.91,11.5,292100.0,10.2374
2012-09-11,11.89,11.49,11.78,11.51,111700.0,10.2463
2012-09-14,12.08,11.54,11.8,11.55,213100.0,10.2819
2012-09-19,11.9,11.72,11.9,11.78,65800.0,10.4867
2012-09-24,11.18,11.01,11.14,11.07,81900.0,9.85461
2012-09-27,10.59,10.34,10.49,10.58,93800.0,9.4184
2012-10-02,11.62,11.06,11.54,11.08,70000.0,9.86351
2012-10-05,11.25,11.11,11.25,11.17,54300.0,9.94363
2012-10-10,11.27,11.12,11.2,11.16,58800.0,9.93472
2012-10-15,11.46,11.11,11.31,11.14,42300.0,9.91692
2012-10-18,11.75,11.52,11.6,11.61,79400.0,10.3353
2012-10-23,11.22,11.01,11.15,11.14,70600.0,9.91692
2012-10-26,11.01,10.64,10.76,10.72,31800.0,9.54303
2012-11-02,12.5,11.44,11.44,12.15,308300.0,10.816
2012-11-07,12.24,11.79,12.07,11.8,102000.0,10.5045
2012-11-12,11.72,11.48,11.68,11.63,67900.0,10.3531
2012-11-15,11.06,10.43,10.93,10.58,82800.0,9.4184
2012-11-20,11.23,10.99,11.21,11.04,22600.0,9.8279
2012-11-26,11.13,10.33,11.13,10.49,114900.0,9.33829
2012-11-29,10.47,10.26,10.33,10.37,39300.0,9.23146
2012-12-04,10.5,10.2,10.2,10.31,100500.0,9.17805
2012-12-07,9.92,9.43,9.92,9.55,125100.0,8.50149
2012-12-12,10.23,9.96,9.97,9.98,282500.0,8.88428
2012-12-17,9.75,9.61,9.7,9.7,197700.0,8.63502
2012-12-20,9.87,9.64,9.69,9.76,57600.0,8.68843
2012-12-26,9.69,9.32,9.62,9.37,48000.0,8.34125
2012-12-31,9.45,9.31,9.31,9.39,206500.0,8.35906
2013-01-04,9.5,9.25,9.44,9.35,66000.0,8.32345
2013-01-09,9.09,8.89,9.01,9.02,282800.0,8.02968
2013-01-14,9.05,8.5,8.98,8.6,298200.0,7.65579
2013-01-17,8.98,8.57,8.66,8.79,174200.0,7.82493
2013-01-23,8.75,8.49,8.68,8.67,90400.0,7.71811
2013-01-28,8.57,8.23,8.52,8.46,106000.0,7.53116
2013-01-31,8.65,8.38,8.44,8.56,61800.0,7.62018
2013-02-05,8.72,8.62,8.69,8.69,44300.0,7.73591
2013-02-08,9.19,8.71,8.84,9.16,141400.0,8.15431
2013-02-13,8.83,8.66,8.79,8.66,55100.0,7.7092
2013-02-19,8.22,8.03,8.18,8.09,96500.0,7.20179
2013-02-22,7.9,7.61,7.67,7.87,90800.0,7.00594
2013-02-27,8.01,7.8,7.8,7.93,39200.0,7.05935
2013-03-04,8.03,7.89,8.03,7.94,81700.0,7.06825
2013-03-07,9.05,8.6,8.6,8.86,253900.0,7.88725
2013-03-12,9.06,8.87,8.93,9.0,59500.0,8.01188
2013-03-15,9.32,9.01,9.08,9.28,126200.0,8.26113
2013-03-20,9.08,8.88,9.04,8.9,51000.0,7.92285
2013-03-25,8.77,8.55,8.74,8.59,29500.0,7.64689
2013-03-28,8.62,8.53,8.58,8.56,27200.0,7.62018
2013-04-03,8.08,7.76,8.08,7.82,67800.0,6.96143
2013-04-08,7.59,7.47,7.55,7.59,56300.0,6.75668
2013-04-11,8.29,7.67,7.68,8.01,128200.0,7.13057
2013-04-16,7.56,7.32,7.41,7.37,66300.0,6.56084
2013-04-19,7.28,7.07,7.07,7.15,42000.0,6.36499
2013-04-24,7.77,7.57,7.6,7.74,52700.0,6.89021
2013-04-29,8.09,7.87,7.98,8.06,42300.0,7.17508
2013-05-02,7.98,7.63,7.74,7.88,38600.0,7.01484
2013-05-07,8.25,7.94,8.25,8.07,106100.0,7.18398
2013-05-10,8.26,8.03,8.24,8.21,47800.0,7.30861
2013-05-15,7.89,7.54,7.89,7.55,92000.0,6.72107
2013-05-20,7.9,7.43,7.43,7.85,42100.0,6.98814
2013-05-23,7.58,7.27,7.4,7.57,79600.0,6.73888
2013-05-29,7.61,7.37,7.4,7.57,35500.0,6.73888
2013-06-03,7.39,7.03,7.34,7.19,121300.0,6.4006
2013-06-06,7.28,7.08,7.16,7.13,79700.0,6.34719
2013-06-11,7.18,7.06,7.1,7.17,38400.0,6.38279
2013-06-14,7.19,7.08,7.18,7.09,41700.0,6.31158
2013-06-19,7.12,7.0,7.07,7.02,35700.0,6.24926
2013-06-24,5.97,5.67,5.83,5.82,111100.0,5.18101
2013-06-27,6.09,5.96,6.01,6.04,29800.0,5.37686
2013-07-02,6.25,5.88,6.25,6.08,99300.0,5.41247
2013-07-08,6.17,5.83,6.17,5.95,87700.0,5.29674
2013-07-11,6.11,5.79,5.79,6.08,87200.0,5.41247
2013-07-16,6.13,5.95,6.07,6.07,92100.0,5.40357
2013-07-19,6.39,6.13,6.18,6.32,75800.0,5.62612
2013-07-24,6.64,6.22,6.22,6.41,119600.0,5.70624
2013-07-29,6.36,6.18,6.34,6.3,23600.0,5.60831
2013-08-01,6.76,6.49,6.68,6.68,105000.0,5.94659
2013-08-06,7.33,6.78,7.33,6.98,205800.0,6.21365
2013-08-09,7.08,6.83,7.02,6.88,33600.0,6.12463
2013-08-14,6.68,6.3,6.47,6.46,129600.0,5.75075
2013-08-19,6.66,6.44,6.6,6.52,53500.0,5.80416
2013-08-22,6.92,6.72,6.74,6.79,64200.0,6.04452
2013-08-27,6.99,6.61,6.9,6.63,44200.0,5.90208
2013-08-30,7.0,6.63,6.64,6.98,117400.0,6.21365
2013-09-05,7.23,7.01,7.09,7.22,106900.0,6.4273
2013-09-10,7.36,7.23,7.23,7.34,100700.0,6.53413
2013-09-13,7.43,7.29,7.33,7.41,47400.0,6.59644
2013-09-18,7.94,7.64,7.9,7.85,158300.0,6.98814
2013-09-23,7.89,7.62,7.68,7.89,180700.0,7.02374
2013-09-26,7.88,7.76,7.84,7.83,79600.0,6.97033
2013-10-01,8.31,7.9,7.97,8.14,219100.0,7.2463
2013-10-04,9.32,8.57,8.57,9.21,363300.0,8.19882
2013-10-09,8.83,8.59,8.81,8.76,130100.0,7.79822
2013-10-14,9.19,8.62,8.84,9.12,84200.0,8.1187
2013-10-17,9.15,9.0,9.02,9.11,118300.0,8.1098
2013-10-22,9.46,9.27,9.35,9.33,64200.0,8.30564
2013-10-25,9.19,8.98,9.1,9.04,94800.0,8.04748
2013-10-30,9.32,8.88,9.12,9.09,101700.0,8.09199
2013-11-04,9.35,8.87,8.87,9.29,143900.0,8.27003
2013-11-07,9.21,8.72,9.15,8.78,229500.0,7.81603
2013-11-12,9.03,8.43,8.99,8.58,423400.0,7.63799
2013-11-15,8.9,8.72,8.72,8.85,54600.0,7.87835
2013-11-20,8.72,8.55,8.72,8.66,124500.0,7.7092
2013-11-25,8.78,8.53,8.78,8.67,99700.0,7.71811
2013-11-29,8.89,8.69,8.71,8.76,28600.0,7.79822
2013-12-04,9.17,8.8,8.83,9.15,168200.0,8.14541
2013-12-09,9.2,8.45,9.2,8.65,442200.0,7.7003
2013-12-12,8.62,8.33,8.57,8.51,162200.0,7.57567
2013-12-17,8.76,8.58,8.76,8.66,79600.0,7.7092
2013-12-20,8.7,8.41,8.45,8.65,98500.0,7.7003
2013-12-26,8.37,8.18,8.37,8.23,56600.0,7.32641
2013-12-31,8.39,8.25,8.25,8.36,98800.0,7.44214
2014-01-06,8.47,8.16,8.3,8.42,70600.0,7.49555
2014-01-09,8.3,7.93,8.3,7.98,174900.0,7.10386
2014-01-14,8.49,8.09,8.18,8.49,175900.0,7.55787
2014-01-17,8.52,8.25,8.51,8.27,78700.0,7.36202
2014-01-23,8.48,8.25,8.25,8.41,106700.0,7.48665
2014-01-28,7.78,7.15,7.78,7.43,408800.0,6.61425
2014-01-31,7.46,7.27,7.38,7.28,180300.0,6.48072
2014-02-05,7.13,6.73,6.74,7.06,245900.0,6.28487
2014-02-10,7.18,6.96,7.18,6.97,128800.0,6.20475
2014-02-13,7.31,7.1,7.16,7.26,83700.0,6.46291
2014-02-19,7.25,6.96,7.25,7.06,182800.0,6.28487
2014-02-24,7.64,7.39,7.41,7.48,126200.0,6.65876
2014-02-27,7.52,7.31,7.31,7.33,59700.0,6.52523
2014-03-04,7.86,7.54,7.55,7.81,124300.0,6.95253
2014-03-07,7.88,7.64,7.82,7.84,124000.0,6.97923
2014-03-12,7.51,7.27,7.49,7.3,76900.0,6.49852
2014-03-17,8.23,7.71,7.91,7.75,364800.0,6.89911
2014-03-20,7.38,7.24,7.35,7.32,125600.0,6.51633
2014-03-25,7.72,7.43,7.68,7.48,102400.0,6.65876
2014-03-28,7.67,7.5,7.66,7.57,63300.0,6.73888
2014-04-02,7.72,7.58,7.58,7.64,65300.0,6.80119
2014-04-07,7.56,7.16,7.55,7.29,116500.0,6.48962
2014-04-10,7.57,7.26,7.52,7.31,57600.0,6.50742
2014-04-15,7.47,7.38,7.44,7.44,133800.0,6.62315
2014-04-21,7.97,7.75,7.97,7.81,140800.0,6.95253
2014-04-24,7.9,7.61,7.63,7.68,107900.0,6.8368
2014-04-29,8.04,7.88,7.91,7.97,68500.0,7.09496
2014-05-02,7.97,7.65,7.65,7.94,73100.0,7.06825
2014-05-07,7.86,7.16,7.86,7.3,280400.0,6.49852
2014-05-12,7.07,6.51,6.71,6.66,245500.0,5.92879
2014-05-15,6.63,6.34,6.6,6.56,109200.0,5.83977
2014-05-20,6.48,6.35,6.48,6.38,110300.0,5.76704
2014-05-23,6.73,6.56,6.56,6.62,46600.0,5.98398
2014-05-29,6.83,6.63,6.69,6.78,77200.0,6.12861
2014-06-03,7.19,6.93,6.95,7.01,178100.0,6.33651
2014-06-06,7.24,7.06,7.06,7.18,100700.0,6.49018
2014-06-11,7.29,7.0,7.06,7.22,99700.0,6.57204
2014-06-16,7.29,7.18,7.19,7.21,143200.0,6.60871
2014-06-19,7.21,7.05,7.08,7.11,120900.0,6.51704
2014-06-24,7.53,7.3,7.46,7.31,106000.0,6.70037
2014-06-27,7.43,7.15,7.2,7.42,66600.0,6.80119
2014-07-02,7.61,7.37,7.47,7.52,80500.0,6.89285
2014-07-08,7.44,7.15,7.43,7.32,77900.0,6.70953
2014-07-11,6.94,6.8,6.92,6.91,61700.0,6.33372
2014-07-16,6.65,6.52,6.53,6.65,125600.0,6.09541
2014-07-21,6.69,6.58,6.69,6.62,44900.0,6.06791
2014-07-24,6.86,6.73,6.73,6.74,75400.0,6.1779
2014-07-29,6.71,6.55,6.64,6.58,106300.0,6.03125
2014-08-01,6.24,6.01,6.24,6.12,314400.0,5.60961
2014-08-06,6.28,6.04,6.1,6.25,83900.0,5.72877
2014-08-11,6.5,6.3,6.44,6.4,109300.0,5.86626
2014-08-14,6.56,6.23,6.56,6.24,269900.0,5.7196
2014-08-19,6.44,6.23,6.28,6.34,97200.0,5.81126
2014-08-22,6.57,6.39,6.47,6.53,79900.0,5.98541
2014-08-27,6.92,6.67,6.67,6.84,118100.0,6.26956
2014-09-02,6.81,6.67,6.81,6.76,101500.0,6.19623
2014-09-05,6.59,6.47,6.54,6.59,77700.0,6.04041
2014-09-10,6.41,6.21,6.26,6.36,164600.0,5.82959
2014-09-15,6.43,6.23,6.26,6.36,114400.0,5.87579
2014-09-18,6.54,6.33,6.5,6.37,68200.0,5.88503
2014-09-23,6.15,5.96,5.96,6.03,137800.0,5.57091
2014-09-26,6.02,5.83,5.87,5.93,110100.0,5.47852
2014-10-01,6.13,5.88,6.11,5.91,147000.0,5.46005
2014-10-06,5.64,5.55,5.55,5.6,192800.0,5.17365
2014-10-09,5.35,5.18,5.32,5.28,184100.0,4.87801
2014-10-14,5.35,4.92,5.25,4.94,382200.0,4.5639
2014-10-17,5.26,4.85,5.17,4.86,214400.0,4.48999
2014-10-22,5.0,4.84,4.97,4.84,218200.0,4.47151
2014-10-27,4.7,4.38,4.7,4.47,246300.0,4.12968
2014-10-30,4.55,4.35,4.55,4.43,166700.0,4.09272
2014-11-04,4.15,3.84,4.15,3.97,271300.0,3.66775
2014-11-07,4.36,4.17,4.19,4.31,244200.0,3.98186
2014-11-12,4.21,4.0,4.21,4.13,181600.0,3.81557
2014-11-17,3.95,3.78,3.95,3.84,162700.0,3.54764
2014-11-20,3.87,3.71,3.77,3.85,280500.0,3.55688
2014-11-25,3.87,3.6,3.87,3.74,310700.0,3.45526
2014-12-01,3.34,3.15,3.3,3.2,383300.0,2.95637
2014-12-04,3.39,3.13,3.28,3.37,392800.0,3.11343
2014-12-09,3.24,3.07,3.15,3.16,526000.0,2.91942
2014-12-12,3.02,2.82,2.92,2.86,381400.0,2.68704
2014-12-17,3.38,2.99,3.05,3.21,438800.0,3.01587
2014-12-22,3.7,3.44,3.7,3.54,280300.0,3.32592
2014-12-26,3.67,3.45,3.61,3.49,104100.0,3.27894
2014-12-31,4.36,3.68,3.78,4.14,721300.0,3.88963
2015-01-06,3.81,3.49,3.71,3.55,355000.0,3.33531
2015-01-09,3.56,3.2,3.51,3.28,664400.0,3.08164
2015-01-14,2.94,2.7,2.85,2.86,626500.0,2.68704
2015-01-20,3.08,2.91,3.0,2.95,395000.0,2.7716
2015-01-23,2.99,2.87,2.96,2.88,242600.0,2.70583
2015-01-28,2.95,2.75,2.93,2.77,320000.0,2.60248
2015-02-02,3.17,2.95,2.95,3.14,531900.0,2.95011
2015-02-05,3.23,3.09,3.1,3.1,207900.0,2.91253
2015-02-10,3.35,3.08,3.33,3.17,271700.0,2.97829
2015-02-13,3.38,3.27,3.31,3.3,302300.0,3.10043
2015-02-19,3.19,2.97,3.09,3.12,157800.0,2.93132
2015-02-24,2.99,2.83,2.96,2.87,317900.0,2.69643
2015-02-27,2.97,2.87,2.88,2.92,207800.0,2.74341
2015-03-04,3.18,2.96,3.05,3.17,370200.0,2.97829
2015-03-09,3.06,2.97,2.99,2.97,245100.0,2.79039
2015-03-12,2.96,2.85,2.96,2.87,244100.0,2.74245
2015-03-17,2.86,2.72,2.72,2.85,267800.0,2.72334
2015-03-20,3.36,3.18,3.2,3.35,742100.0,3.20112
2015-03-25,3.54,3.3,3.34,3.53,448000.0,3.37312
2015-03-30,3.62,3.41,3.58,3.48,304800.0,3.32534
2015-04-02,3.82,3.67,3.67,3.75,286700.0,3.58334
2015-04-08,3.99,3.79,3.9,3.91,260700.0,3.73623
2015-04-13,4.15,3.97,4.15,4.13,212700.0,3.94645
2015-04-16,4.49,4.22,4.35,4.4,195400.0,4.20445
2015-04-21,4.37,4.26,4.33,4.37,289500.0,4.17579
2015-04-24,4.58,4.42,4.45,4.43,348800.0,4.23312
2015-04-29,4.57,4.31,4.35,4.51,388600.0,4.30956
2015-05-04,4.83,4.61,4.64,4.61,305900.0,4.40512
2015-05-07,4.5,4.08,4.47,4.08,587800.0,3.89867
2015-05-12,4.23,4.06,4.13,4.07,168900.0,3.88912
2015-05-15,4.16,3.98,4.0,4.15,261200.0,3.96556
2015-05-20,4.24,4.03,4.08,4.22,142000.0,4.03245
2015-05-26,4.11,3.99,4.05,4.09,110000.0,3.90823
2015-05-29,4.05,3.92,3.92,4.03,100000.0,3.8509
2015-06-03,4.14,4.01,4.1,4.09,196300.0,3.90823
2015-06-08,4.14,4.06,4.06,4.12,125200.0,3.9369
2015-06-11,4.14,3.99,4.12,4.07,210100.0,3.93643
2015-06-16,4.08,3.88,3.88,4.08,117700.0,3.9461
2015-06-19,3.93,3.79,3.83,3.81,126500.0,3.68496
2015-06-24,4.18,4.05,4.06,4.1,90900.0,3.96545
2015-06-29,4.03,3.77,3.99,3.96,315900.0,3.83004
2015-07-02,4.0,3.87,3.89,3.91,99300.0,3.78168
2015-07-08,3.89,3.7,3.7,3.79,150300.0,3.66562
2015-07-13,3.7,3.51,3.59,3.64,155600.0,3.52054
2015-07-16,3.63,3.41,3.63,3.41,172900.0,3.29809
2015-07-21,3.19,3.01,3.01,3.14,256000.0,3.03695
2015-07-24,3.11,2.86,2.94,2.88,150200.0,2.78548
2015-07-29,3.09,2.87,2.87,2.96,135400.0,2.86286
2015-08-03,2.99,2.88,2.93,2.92,48700.0,2.82417
2015-08-06,3.08,2.82,2.93,3.04,155300.0,2.94023
2015-08-11,3.02,2.91,2.99,2.97,77400.0,2.87253
2015-08-14,3.06,2.9,2.98,2.95,178400.0,2.85319
2015-08-19,2.87,2.7,2.82,2.71,189100.0,2.62106
2015-08-24,2.75,2.46,2.6,2.66,188000.0,2.5727
2015-08-27,3.19,2.86,2.92,3.07,185400.0,2.96925
2015-09-01,3.4,3.06,3.34,3.09,158200.0,2.98859
2015-09-04,2.81,2.73,2.77,2.76,202700.0,2.66942
2015-09-10,2.77,2.58,2.66,2.72,254700.0,2.63074
2015-09-15,2.77,2.65,2.67,2.71,97700.0,2.67015
2015-09-18,2.85,2.63,2.85,2.65,112100.0,2.61103
2015-09-23,2.88,2.67,2.88,2.69,75500.0,2.65044
2015-09-28,2.66,2.51,2.59,2.65,98900.0,2.61103
2015-10-01,2.77,2.62,2.69,2.69,144500.0,2.65044
2015-10-06,2.99,2.84,2.84,2.97,108200.0,2.92632
2015-10-09,3.1,2.99,3.08,3.02,83800.0,2.97559
2015-10-14,2.81,2.65,2.77,2.72,258000.0,2.68
2015-10-19,2.72,2.6,2.72,2.67,232500.0,2.63074
2015-10-22,2.74,2.65,2.68,2.68,70100.0,2.64059
2015-10-27,2.57,2.5,2.55,2.52,150100.0,2.48294
2015-10-30,2.75,2.58,2.64,2.72,203500.0,2.68
2015-11-04,2.75,2.66,2.73,2.73,119300.0,2.68985
2015-11-09,2.75,2.66,2.72,2.7,63300.0,2.66029
2015-11-12,2.55,2.23,2.32,2.3,646800.0,2.26618
2015-11-17,2.19,1.99,2.05,2.03,375300.0,2.00015
2015-11-20,2.07,1.99,2.0,2.0,329800.0,1.97059
2015-11-25,2.2,2.03,2.06,2.13,68000.0,2.09868
2015-12-01,2.19,2.02,2.02,2.15,227600.0,2.11838
2015-12-04,2.16,1.99,2.15,2.02,138700.0,1.99029
2015-12-09,1.84,1.71,1.79,1.73,235600.0,1.70456
2015-12-14,1.68,1.56,1.64,1.66,234000.0,1.66
2015-12-17,1.66,1.53,1.53,1.64,152100.0,1.64
2015-12-22,1.76,1.7,1.7,1.76,89500.0,1.76
2015-12-28,2.1,1.67,1.79,1.67,80900.0,1.67
2015-12-31,1.82,1.75,1.77,1.8,70100.0,1.8
2016-01-06,1.72,1.67,1.71,1.7,92800.0,1.7
2016-01-11,1.66,1.42,1.64,1.42,235600.0,1.42
2016-01-14,1.35,1.22,1.26,1.33,152000.0,1.33
2016-01-20,1.12,1.0,1.07,1.07,469900.0,1.07
2016-01-25,1.22,1.14,1.18,1.17,148100.0,1.17
2016-01-28,1.47,1.35,1.38,1.43,231800.0,1.43
2016-02-02,1.32,1.21,1.32,1.22,66500.0,1.22
2016-02-05,1.3,1.24,1.28,1.24,117300.0,1.24
2016-02-10,1.25,1.18,1.21,1.23,86700.0,1.23
2016-02-16,1.31,1.2,1.26,1.24,102500.0,1.24
2016-02-19,1.41,1.33,1.38,1.38,52100.0,1.38
2016-02-24,1.5,1.28,1.29,1.35,189100.0,1.35
2016-02-29,1.5,1.42,1.44,1.44,128600.0,1.44
2016-03-03,1.66,1.48,1.48,1.63,294100.0,1.63
2016-03-08,1.84,1.7,1.84,1.72,204800.0,1.72
2016-03-11,1.76,1.68,1.71,1.72,193900.0,1.72
2016-03-16,1.67,1.6,1.64,1.66,172800.0,1.66
2016-03-21,1.72,1.65,1.65,1.7,121400.0,1.7
2016-03-24,1.67,1.6,1.63,1.67,60300.0,1.67
2016-03-30,1.72,1.63,1.66,1.69,149500.0,1.69
2016-04-04,1.7,1.66,1.7,1.68,57900.0,1.68
2016-04-07,1.7,1.65,1.65,1.69,78400.0,1.69
2016-04-12,1.82,1.74,1.74,1.81,257600.0,1.81
2016-04-15,1.78,1.67,1.74,1.76,53000.0,1.76
2016-04-20,2.02,1.89,1.9,1.93,186800.0,1.93
2016-04-25,1.97,1.88,1.96,1.92,79300.0,1.92
2016-04-28,2.04,1.95,1.99,1.98,118000.0,1.98
2016-05-03,1.92,1.87,1.89,1.9,98300.0,1.9
2016-05-06,1.94,1.79,1.86,1.94,176200.0,1.94
2016-05-11,1.98,1.87,1.95,1.94,246200.0,1.94
2016-05-16,1.97,1.92,1.97,1.94,105000.0,1.94
2016-05-19,1.83,1.77,1.83,1.81,31900.0,1.81
2016-05-24,1.8,1.7,1.78,1.7,100800.0,1.7
2016-05-27,1.77,1.71,1.77,1.71,47200.0,1.71
2016-06-02,1.7,1.66,1.7,1.68,81600.0,1.68
2016-06-07,1.78,1.71,1.73,1.78,100600.0,1.78
2016-06-10,1.85,1.75,1.82,1.76,122600.0,1.76
2016-06-15,1.66,1.6,1.65,1.64,82400.0,1.64
2016-06-20,1.7,1.65,1.68,1.66,23200.0,1.66
2016-06-23,1.97,1.79,1.84,1.97,81500.0,1.97
2016-06-28,1.92,1.78,1.78,1.86,31200.0,1.86
2016-07-01,1.96,1.82,1.82,1.87,28100.0,1.87
2016-07-07,1.85,1.72,1.85,1.74,27000.0,1.74
2016-07-12,1.81,1.73,1.75,1.8,72300.0,1.8
2016-07-15,1.82,1.74,1.82,1.77,53800.0,1.77
2016-07-20,1.73,1.7,1.71,1.71,41100.0,1.71
2016-07-25,1.73,1.6,1.7,1.62,67600.0,1.62
2016-07-28,1.64,1.6,1.61,1.63,34200.0,1.63
2016-08-02,1.67,1.6,1.67,1.61,68700.0,1.61
2016-08-05,1.61,1.58,1.59,1.59,38800.0,1.59
2016-08-10,1.63,1.59,1.62,1.61,103500.0,1.61
2016-08-15,1.97,1.91,1.92,1.95,49000.0,1.95
2016-08-18,2.25,1.98,2.01,2.1,388300.0,2.1
2016-08-23,2.04,1.89,1.89,1.96,206300.0,1.96
2016-08-26,1.92,1.82,1.9,1.83,61500.0,1.83
2016-08-31,1.87,1.81,1.86,1.85,69500.0,1.85
2016-09-06,1.96,1.87,1.93,1.94,39300.0,1.94
2016-09-09,2.18,2.0,2.0,2.16,223300.0,2.16
2016-09-14,2.02,1.84,1.99,1.89,189400.0,1.89
2016-09-19,2.0,1.91,1.98,1.98,121500.0,1.98
2016-09-22,2.1,1.92,2.02,1.92,98300.0,1.92
2016-09-27,1.85,1.75,1.83,1.77,137200.0,1.77
2016-09-30,2.01,1.94,2.0,1.97,211300.0,1.97
2016-10-05,2.06,2.0,2.06,2.04,101100.0,2.04
2016-10-10,2.15,2.04,2.06,2.12,53700.0,2.12
2016-10-13,2.13,2.02,2.07,2.13,79800.0,2.13
2016-10-18,2.12,2.05,2.1,2.07,51800.0,2.07
2016-10-21,2.06,2.0,2.03,2.03,30300.0,2.03
2016-10-26,1.92,1.83,1.92,1.86,134100.0,1.86
2016-10-31,1.86,1.8,1.84,1.82,22700.0,1.82
2016-11-03,1.84,1.77,1.83,1.82,19300.0,1.82
2016-11-08,1.86,1.78,1.79,1.8,48400.0,1.8
2016-11-11,1.82,1.75,1.79,1.78,58400.0,1.78
2016-11-16,1.84,1.78,1.78,1.78,34800.0,1.78
2016-11-21,1.84,1.8,1.83,1.83,65400.0,1.83
2016-11-25,1.82,1.77,1.78,1.79,11500.0,1.79
2016-11-30,1.82,1.73,1.78,1.75,325600.0,1.75
2016-12-05,1.99,1.8,1.9,1.81,399100.0,1.81
2016-12-08,1.78,1.7,1.7,1.73,102800.0,1.73
2016-12-13,1.87,1.76,1.78,1.83,102400.0,1.83
2016-12-16,1.73,1.64,1.67,1.73,129000.0,1.73
2016-12-21,1.74,1.67,1.7,1.72,140600.0,1.72
2016-12-27,1.72,1.66,1.67,1.72,57000.0,1.72
2016-12-30,1.7,1.67,1.67,1.69,86400.0,1.69
2017-01-05,1.89,1.81,1.86,1.84,143100.0,1.84
2017-01-10,1.8,1.73,1.76,1.78,114100.0,1.78
2017-01-13,1.79,1.75,1.75,1.78,42200.0,1.78
2017-01-19,1.75,1.71,1.73,1.72,44600.0,1.72
2017-01-24,1.76,1.71,1.71,1.75,251400.0,1.75
2017-01-27,1.79,1.73,1.77,1.75,36000.0,1.75
2017-02-01,1.76,1.69,1.73,1.72,106900.0,1.72
2017-02-06,1.73,1.66,1.72,1.69,109600.0,1.69
2017-02-09,1.67,1.61,1.67,1.64,227900.0,1.64
2017-02-14,1.85,1.75,1.85,1.79,210400.0,1.79
2017-02-17,1.77,1.72,1.73,1.74,81400.0,1.74
2017-02-23,1.75,1.65,1.72,1.67,181600.0,1.67
2017-02-28,1.69,1.61,1.65,1.63,106200.0,1.63
2017-03-03,1.68,1.61,1.68,1.62,145600.0,1.62
2017-03-08,1.61,1.55,1.58,1.59,230600.0,1.59
2017-03-13,1.65,1.56,1.65,1.59,61100.0,1.59
2017-03-16,1.59,1.5,1.55,1.54,119300.0,1.54
2017-03-21,1.57,1.51,1.57,1.52,34600.0,1.52
2017-03-24,1.55,1.5,1.54,1.5,66400.0,1.5
2017-03-29,1.63,1.51,1.52,1.62,96200.0,1.62
2017-04-03,1.58,1.54,1.55,1.57,100200.0,1.57
2017-04-06,1.63,1.57,1.57,1.6,73500.0,1.6
2017-04-11,1.64,1.6,1.62,1.62,75500.0,1.62
2017-04-17,1.58,1.53,1.56,1.53,70700.0,1.53
2017-04-20,1.58,1.51,1.56,1.53,35700.0,1.53
2017-04-25,1.53,1.47,1.49,1.52,54000.0,1.52
2017-04-28,1.51,1.46,1.51,1.46,80400.0,1.46
2017-05-03,1.47,1.44,1.46,1.44,35800.0,1.44
2017-05-08,1.51,1.39,1.39,1.47,101100.0,1.47
2017-05-11,1.51,1.42,1.42,1.51,95800.0,1.51
2017-05-16,1.65,1.59,1.6,1.62,59600.0,1.62
2017-05-19,1.63,1.58,1.6,1.6,22900.0,1.6
2017-05-24,1.59,1.55,1.56,1.58,81500.0,1.58
2017-05-30,1.49,1.43,1.48,1.44,48600.0,1.44
2017-06-02,1.45,1.41,1.42,1.44,47300.0,1.44
2017-06-07,1.41,1.36,1.39,1.39,102200.0,1.39
2017-06-12,1.4,1.33,1.4,1.33,104000.0,1.33
2017-06-15,1.27,1.21,1.25,1.22,156400.0,1.22
2017-06-20,1.33,1.25,1.32,1.31,70100.0,1.31
2017-06-23,1.32,1.25,1.25,1.32,26900.0,1.32
2017-06-28,1.3,1.27,1.27,1.29,15200.0,1.29
2017-07-03,1.35,1.3,1.33,1.32,10100.0,1.32
2017-07-07,1.32,1.28,1.32,1.29,46300.0,1.29
2017-07-12,1.34,1.27,1.27,1.3,46600.0,1.3
2017-07-17,1.35,1.3,1.3,1.34,20100.0,1.34
2017-07-20,1.37,1.35,1.36,1.35,13600.0,1.35
2017-07-25,1.36,1.34,1.35,1.35,41000.0,1.35
2017-07-28,1.4,1.36,1.36,1.38,31800.0,1.38
2017-08-02,1.34,1.3,1.34,1.32,46300.0,1.32
2017-08-07,1.3,1.23,1.27,1.25,14800.0,1.25
2017-08-10,1.28,1.17,1.28,1.25,115800.0,1.25
2017-08-15,1.22,1.18,1.19,1.18,65700.0,1.18
2017-08-18,1.22,1.19,1.19,1.19,44200.0,1.19
2017-08-23,1.24,1.2,1.2,1.24,40600.0,1.24
2017-08-28,1.28,1.22,1.25,1.25,28500.0,1.25
2017-08-31,1.35,1.23,1.26,1.34,60600.0,1.34
2017-09-06,1.33,1.28,1.3,1.28,34700.0,1.28
2017-09-11,1.29,1.21,1.29,1.21,178900.0,1.21
2017-09-14,1.26,1.23,1.25,1.24,25800.0,1.24
2017-09-19,1.17,1.12,1.13,1.15,81800.0,1.15
2017-09-22,1.26,1.22,1.23,1.26,56600.0,1.26
2017-09-27,1.37,1.32,1.33,1.36,99300.0,1.36
2017-10-02,1.44,1.4,1.41,1.42,24800.0,1.42
2017-10-05,1.5,1.43,1.44,1.48,56400.0,1.48
2017-10-10,1.6,1.51,1.51,1.56,137200.0,1.56
2017-10-13,1.62,1.58,1.62,1.6,49300.0,1.6
2017-10-18,1.59,1.54,1.57,1.59,46000.0,1.59
2017-10-23,1.6,1.53,1.6,1.57,46800.0,1.57
2017-10-26,1.58,1.5,1.57,1.55,49900.0,1.55
2017-10-31,1.7,1.56,1.65,1.68,45700.0,1.68
2017-11-03,1.69,1.43,1.64,1.48,631000.0,1.48
2017-11-08,1.57,1.51,1.56,1.52,20400.0,1.52
2017-11-13,1.52,1.46,1.52,1.5,59200.0,1.5
2017-11-16,1.48,1.43,1.48,1.45,50900.0,1.45
2017-11-21,1.49,1.46,1.49,1.48,27200.0,1.48
2017-11-27,1.53,1.46,1.51,1.47,39000.0,1.47
2017-11-30,1.46,1.43,1.44,1.45,99100.0,1.45
2017-12-05,1.45,1.42,1.44,1.43,13700.0,1.43
2017-12-08,1.38,1.33,1.38,1.34,99100.0,1.34
2017-12-13,1.38,1.31,1.37,1.33,75500.0,1.33
2017-12-18,1.33,1.26,1.32,1.28,122200.0,1.28
2017-12-21,1.33,1.29,1.3,1.33,132500.0,1.33
2017-12-27,1.4,1.31,1.35,1.39,175100.0,1.39
2018-01-02,1.48,1.44,1.47,1.46,54800.0,1.46
2018-01-05,1.44,1.41,1.44,1.44,98900.0,1.44
2018-01-10,1.46,1.42,1.42,1.45,94700.0,1.45
2018-01-16,1.49,1.43,1.49,1.46,91300.0,1.46
2018-01-19,1.49,1.45,1.47,1.48,33400.0,1.48
2018-01-24,1.48,1.45,1.47,1.46,56500.0,1.46
2018-01-29,1.5,1.46,1.49,1.48,59400.0,1.48
2018-02-01,1.47,1.44,1.47,1.46,58200.0,1.46
2018-02-06,1.4,1.36,1.4,1.4,93400.0,1.4
2018-02-09,1.32,1.24,1.32,1.27,83100.0,1.27
2018-02-14,1.35,1.3,1.33,1.33,39400.0,1.33
2018-02-20,1.33,1.31,1.31,1.33,28500.0,1.33
2018-02-23,1.32,1.28,1.29,1.32,9800.0,1.32
2018-02-28,1.32,1.26,1.3,1.3,70400.0,1.3
2018-03-05,1.29,1.24,1.25,1.29,49800.0,1.29
2018-03-08,1.31,1.27,1.31,1.28,160600.0,1.28
2018-03-13,1.34,1.28,1.28,1.34,44200.0,1.34
2018-03-16,1.35,1.32,1.33,1.33,26400.0,1.33
2018-03-21,1.41,1.34,1.34,1.41,41900.0,1.41
2018-03-26,1.46,1.38,1.46,1.39,19900.0,1.39
2018-03-29,1.35,1.31,1.33,1.34,47800.0,1.34
2018-04-04,1.32,1.3,1.32,1.32,11000.0,1.32
2018-04-09,1.33,1.25,1.29,1.27,134100.0,1.27
2018-04-12,1.36,1.3,1.31,1.36,69900.0,1.36
2018-04-17,1.42,1.37,1.39,1.4,131000.0,1.4
2018-04-20,1.61,1.48,1.48,1.61,147800.0,1.61
2018-04-25,1.66,1.55,1.57,1.63,88300.0,1.63
2018-04-30,1.8,1.67,1.71,1.8,264600.0,1.8
2018-05-03,1.94,1.85,1.87,1.93,144600.0,1.93
2018-05-08,2.05,1.91,1.96,1.99,303100.0,1.99
2018-05-11,2.01,1.78,2.01,1.91,377400.0,1.91
2018-05-16,2.04,1.93,1.96,1.96,295000.0,1.96
2018-05-21,2.84,2.35,2.38,2.64,1888900.0,2.64
2018-05-24,2.45,2.29,2.4,2.31,392500.0,2.31
2018-05-30,2.49,2.26,2.28,2.49,483600.0,2.49
2018-06-04,2.52,2.37,2.47,2.41,431700.0,2.41
2018-06-07,2.52,2.41,2.49,2.45,279100.0,2.45
2018-06-12,2.48,2.35,2.35,2.39,291300.0,2.39
2018-06-15,2.3,2.24,2.3,2.24,431400.0,2.24
2018-06-20,2.43,2.35,2.4,2.36,212300.0,2.36
2018-06-25,2.43,2.32,2.36,2.4,165700.0,2.4
2018-06-28,2.84,2.65,2.65,2.72,793100.0,2.72
2018-07-03,3.03,2.76,2.76,2.87,940600.0,2.87
2018-07-09,3.3,2.95,2.98,3.29,1352500.0,3.29
2018-07-12,3.89,3.66,3.89,3.76,1408600.0,3.76
2018-07-17,3.74,3.52,3.74,3.53,1010184.0,3.53